{
  "_meta": {
    "version": "0.2",
    "last_updated": "2026-05-22",
    "sources": [
      "brand-brain/01_brand-overview.md",
      "brand-brain/02_voice-guide.md",
      "brand-brain/03-product-specs-index.md",
      "brand-brain/03-aura.md",
      "brand-brain/03-music-shield-gen-2.md",
      "brand-brain/03-lion-city.md",
      "brand-brain/03-infinity.md",
      "brand-brain/03-zurix.md",
      "brand-brain/03-golf-shield.md",
      "brand-brain/04-consumer-language.md",
      "brand-brain/05-use-case-messaging.md"
    ],
    "owner": "Chase · CCO",
    "notes": "Source of truth for everything downstream — page, campaigns, ad copy, JSON consumers. Individual product files are authoritative for specs; this JSON is the cross-product summary."
  },

  "identity": {
    "name": "Chamelo",
    "legal_name": "Chamelo Eyewear",
    "category": "Smart eyewear · tint-adjustable and color-changing lenses",
    "tagline_primary": "Be different. See different.",
    "positioning_oneliner": "Instant tint and color-changing glasses.",
    "wedge": "Direct, on-demand control over your lens — tap or slide. Not auto-reactive. Not Transitions. The lens keeps up.",
    "real_product": "We don't sell sunglasses. We sell control — over light, over environment, over how you see the world.",
    "mission_short": "Chamelo is leading a new era of smart eyewear, leveraging cutting-edge technology to empower people to see the world on their terms.",
    "essence": "Game-changing, performance-enhancing, and mood-boosting sunglasses. Made with next-gen Chamelo® lenses."
  },

  "trust": {
    "rating": "4.7",
    "review_count": "9,200+",
    "customer_count": "100,000+",
    "amazon_rating": "4.0★ (third-party validation — same product, different fulfillment)",
    "press_awards": ["TIME Magazine Best Invention (Aura)"],
    "expert_endorsement": "Dr. Jay Schwartz · Phoenix Suns ophthalmologist",
    "guarantee": "30-day money-back",
    "warranty": "1-year manufacturer's",
    "shipping": "Fast and free",
    "trial": "30-day free trial"
  },

  "lens_technologies": {
    "_note": "Five proprietary lens technologies. Always use the trademarked name in customer copy — never the engineering name.",
    "eclipse": {
      "name": "Eclipse™",
      "type": "Tint-adjusting (clear ↔ dark)",
      "control": "Manual slider on temple · auto-activates when arms open",
      "response_time": "0.1 seconds",
      "speed_claim": "1,800× faster than photochromic",
      "neutrality": "True, neutral black at all tint levels",
      "products": ["Music Shield Gen 2", "Shield", "Aroza", "Golf Shield", "Prime"]
    },
    "prismatic": {
      "name": "Prismatic™",
      "type": "Color-changing — four hues per palette",
      "control": "Touch on right temple",
      "world_first_claim": "World's first touch-controlled color-changing sunglasses",
      "palettes": {
        "calm": ["Crystal", "Indigo", "Ruby", "Violet"],
        "energy": ["Clear", "Yellow", "Pink", "Orange"]
      },
      "products": ["Aura", "Aura Audio", "Aura Rx", "by O Lens"]
    },
    "hvl": {
      "name": "HVL™",
      "engineering_name": "Guest-host liquid crystal (internal use only)",
      "type": "Touch-controlled tint",
      "control": "Touch on right temple (cycles 4 levels)",
      "products": ["Lion City", "Lion City Rx", "Infinity", "Zurix"]
    },
    "alpha": {
      "name": "Alpha™",
      "engineering_name": "Twisted nematic liquid crystal (internal use only)",
      "type": "Tint · varied modes (some polarized, some solar)",
      "products": ["Dusk (polarized)", "Veil", "Falcon (built-in de-polarizer, solar-powered)"]
    },
    "by_o": {
      "name": "by O™",
      "type": "Blue-light blocking variant (circadian protocol)",
      "states": ["Warm Crystal", "Yellow", "Orange", "Red"],
      "products": ["by O Lens (Aura frame with by O palette)"]
    },
    "claim_rule": "Lead with the benefit, not the spec. The 0.1 seconds is the punchline, never the headline."
  },

  "product_catalog": {
    "sport": [
      { "name": "Music Shield Gen 2", "tech": "Eclipse™", "vlt": "63% to 17%", "audio": true, "price": "$199 (MSRP $299)", "status": "Active hero · NBA Team Editions launching" },
      { "name": "Shield", "tech": "Eclipse™", "vlt": "54% to 17%", "audio": false, "price": "$199", "status": "Music Shield's lighter partner" },
      { "name": "Golf Shield", "tech": "Eclipse™", "vlt": "54% to 17%", "audio": false, "price": "TBD", "status": "About to push · Dick's retail" },
      { "name": "Aroza", "tech": "Eclipse™", "vlt": "45% to 13% (goggle)", "audio": false, "price": "$349", "status": "Year-round retail · winter-weighted" },
      { "name": "Falcon", "tech": "Alpha™ + de-polarizer", "vlt": "34% to 8%", "audio": false, "price": "$199", "status": "Standard · solar-powered, no battery" },
      { "name": "Prime", "tech": "Confirm", "vlt": "45% to 9%", "audio": "Confirm", "price": "On sale", "status": "Active" }
    ],
    "lifestyle": [
      { "name": "Lion City", "tech": "HVL™", "vlt": "48% to 8%", "audio": true, "price": "$349", "status": "Pushing · Tortoise Trio anchor · Italian acetate" },
      { "name": "Lion City Rx", "tech": "HVL™ + single-vision Rx", "vlt": "48% to 8%", "audio": true, "price": "$349 + $199–$299 Rx", "status": "World's first electronic tint-changing Rx sunglasses" },
      { "name": "Infinity", "tech": "HVL™", "vlt": "48% to 8%", "audio": true, "price": "$349", "status": "Pushing · Tortoise Trio · bold rectangular" },
      { "name": "Zurix", "tech": "HVL™", "vlt": "50% to 10%", "audio": false, "price": "$199", "status": "Pushing · Tortoise Trio · women's market push" },
      { "name": "Dusk", "tech": "Alpha™ (polarized)", "vlt": "38% to 4%", "audio": true, "price": "TBD", "status": "Back from brief unlisting" },
      { "name": "Veil", "tech": "Alpha™", "vlt": "37% to 8%", "audio": "Confirm", "price": "TBD", "status": "Sold out · returning" }
    ],
    "prismatic": [
      { "name": "Aura", "tech": "Prismatic™", "vlt": "65% to 20%", "audio": false, "price": "$385", "status": "Hero · best paid performer" },
      { "name": "Aura Audio", "tech": "Prismatic™ + open-ear audio", "vlt": "62% to 21%", "audio": true, "price": "$485", "status": "Premium upgrade" },
      { "name": "Aura Rx", "tech": "Prismatic™ + single-vision Rx", "vlt": "65% to 20%", "audio": false, "price": "$385 + Rx", "status": "World's only color-changing Rx" },
      { "name": "by O Lens", "tech": "Prismatic™ + by O™", "vlt": "60% to 25%", "audio": false, "price": "TBD", "status": "Pre-launch · Omari Hardwick · biohacking circadian" }
    ]
  },

  "active_collections": {
    "tortoise_trio": {
      "name": "Tortoise Trio",
      "tagline": "Italian acetate. Japanese lens technology.",
      "products": ["Lion City", "Infinity", "Zurix"],
      "notes": "Lion City and Infinity are Italian acetate across all colorways; Zurix is acetate ONLY in the tortoise variant — standard Zurix is TR90.",
      "approved_lines": [
        "Italian acetate. Japanese lens technology.",
        "Italian frames. Lenses engineered in Japan.",
        "Hand-finished Italian acetate. Japanese liquid crystal film.",
        "Smart glasses that don't look like smart glasses.",
        "Classic frame styles, upgraded."
      ]
    },
    "nba_team_editions": {
      "name": "Music Shield Gen 2 NBA Team Editions",
      "base_product": "Music Shield Gen 2",
      "available_now": ["New York Knicks"],
      "pre_sale_june_2026": ["San Antonio Spurs", "Boston Celtics", "Los Angeles Lakers", "Golden State Warriors", "Phoenix Suns", "Miami Heat", "Chicago Bulls", "Oklahoma City Thunder"],
      "license_rules": "Paid usage of NBA marks/logos/player likenesses is restricted by license. Always check claims register before publishing. Marbury is CBO — fine to reference; other players are not endorsing.",
      "approved_lines": [
        "Officially Licensed. Tint Control. Knicks.",
        "Built in Blue. Tuned for Orange.",
        "Marbury's team. Marbury's glasses."
      ]
    },
    "ambassador_editions": [
      { "ambassador": "Alycia Baumgardner", "edition": "Bomb Edition", "base": "Shield + Music Shield Gen 2", "colorway": "Slate Blue + Gold · Amber high-contrast lens" },
      { "ambassador": "Jose Reyes", "edition": "La Melaza", "base": "Shield + Music Shield Gen 2" },
      { "ambassador": "Geraldo Perdomo", "edition": "Domo", "base": "Shield only" },
      { "ambassador": "Omari Hardwick", "edition": "by O Lens", "base": "Aura frame + by O Prismatic palette", "positioning": "Biohacking · circadian protocol" },
      { "ambassador": "Patrick Mouratoglou", "edition": "Tennis line", "status": "In development · tied to French Open / Wimbledon / US Open" }
    ]
  },

  "ambassadors": [
    {
      "name": "Stephon Marbury",
      "role": "Chief Brand Officer · Two-time NBA All-Star",
      "voice": "Authentic, direct, high-energy, declarative",
      "signature_phrases": ["C'mon now!", "Chamelo, baby", "I'm telling you"],
      "works": "Blind reactions, genuine surprise, off-the-cuff testimonials, basketball references",
      "doesnt_work": "Scripted product walkthroughs, generic hype-man energy"
    },
    {
      "name": "Alycia Baumgardner",
      "role": "Boxer · 'The Bomb' · Bomb Edition",
      "voice": "Mental-performance angle, champion mentality",
      "signature_phrases": ["Boxing is 90% mental", "Train hard, fight easy", "Heels on, gloves on"],
      "works": "Training environments, championship credibility, women's empowerment without preaching",
      "doesnt_work": "Forcing a fashion-first frame on a fighter"
    },
    { "name": "Jose Reyes", "edition": "La Melaza", "file": "03-jose-reyes.md (pending)" },
    { "name": "Geraldo Perdomo", "edition": "Domo", "file": "03-geraldo-perdomo.md (pending)" },
    { "name": "Omari Hardwick", "edition": "by O Lens", "positioning": "Biohacking · circadian", "file": "03-by-o-lens.md (pending)" },
    { "name": "Patrick Mouratoglou", "edition": "Tennis line", "status": "In development", "file": "03-tennis-line.md (pending)" }
  ],

  "voice": {
    "pillars": [
      { "name": "Confident and Knowledgeable", "do": ["Lead with what we know", "Use exact specs ('0.1 seconds', '63% to 17% VLT')"], "dont": ["Hedge", "Vague claims"] },
      { "name": "Fun and Young-at-Heart", "do": ["Single exclamation when it lands", "Pattern-interrupts"], "dont": ["Double exclamations", "Forced humor"] },
      { "name": "Passionate and Personal", "do": ["Talk like a friend", "Quote real customers", "Use real names"], "dont": ["Corporate jargon", "PR-speak"] },
      { "name": "Keep It Real", "do": ["Let the product speak", "Acknowledge limitations"], "dont": ["Oversell", "Script ambassadors out of their voice"] }
    ],
    "customer_words_to_use": {
      "_critical": "Use the customer's exact word, not our marketing equivalent.",
      "instant": "65% of Amazon positives and 63% of Trustpilot positives use 'instant' or 'almost instant' — never 'fast', 'rapid', or 'lightning-quick'",
      "game_changer": "Most repeated customer phrase — use it (customer voice, even though 'game-changing' is banned in brand voice)",
      "forgot_i_was_wearing_them": "Lightweight phrasing customers actually use",
      "are_those_changing_color": "The implied Aura compliment — use as a hook",
      "dont_have_to_think_about_it": "The everyday-utility phrasing under-leveraged in current creative"
    },
    "banned_phrases": [
      "Game-changing (in brand voice — customer voice OK)",
      "Revolutionary",
      "Unleash",
      "Next-level",
      "Push your limits",
      "Go further",
      "Take it to the next level",
      "Disrupting [category]",
      "World-class (when not literal)",
      "Best in class (when not measurable)",
      "Smart (use 'adaptive' or 'almost-smart' — customer phrase)",
      "Oversized (banned for Zurix specifically)",
      "Polarized (Falcon — anti-claim, generates 1-star reviews)",
      "Premium build (at $200+ until temple-arm fix ships)",
      "Improve your game / lower your score (Golf Shield — unsupportable)"
    ]
  },

  "universal_writing_rules": {
    "vlt_format": "Larger (clearer) number first: '63% to 17%' NOT '17% to 63%'",
    "uv_format": "Always '100% UVA/UVB protection.' Never '99.9%' in customer copy.",
    "speed": "Use '0.1 seconds' when accuracy matters. Use 'instant' or 'instantly' in hero copy.",
    "audio": "Always 'open-ear audio' or 'Bluetooth audio.' Never 'bone conduction' or 'headphones.'",
    "charging": "Use 'magnetic charging cable.' Do NOT specify USB-A or USB-C until older inventory clears.",
    "customer_count": "Brand-level: '100,000+ customers.' The 50K+ figure is Music Shield Gen 1 unit sales only.",
    "bundles": "Never bundle framing. Every product is an individual SKU.",
    "pricing": "Reference both MSRP and current selling price when length allows: '$199 (MSRP $299)'",
    "lens_tech_naming": "Always use trademarked name (Eclipse™, Prismatic™, HVL™, Alpha™, by O™) in customer copy. Never the engineering name."
  },

  "audiences": {
    "_note": "Full audience messaging lives in 05-use-case-messaging.md. Summary below.",
    "validated": [
      "Runners (dawn/dusk light changes, open-ear awareness)",
      "Cyclists (road + MTB + commuter)",
      "Commuters (tunnels + indoor/outdoor)",
      "Aura compliments-driven style buyer (dominant Aura pattern)",
      "Golfers (shade-to-sun, half-rim downward view)",
      "Pickleball / racket sports",
      "Premium daily / professional (Lion City)",
      "Skiers (Aroza — sunny day, NOT flat light)",
      "Triathletes (Shield — no audio for race rules)"
    ],
    "emerging": [
      "Truck drivers (n=1 verbatim, strongest single anecdote)",
      "Indoor/outdoor workers (most under-leveraged angle)",
      "Open-visor motorcyclists",
      "Convertible drivers",
      "Farmers / yardwork",
      "Photochromic Rx disappointed (150M+ TAM)",
      "Ray-Ban Meta privacy skeptic (no camera / no AI)",
      "NBA fans (team editions)",
      "Gift buyers (seasonal)"
    ],
    "legal_review_required": [
      "Light-sensitive / migraine / post-cataract — medical-adjacent claims"
    ]
  },

  "ai_content_policy": {
    "permitted": true,
    "rules": [
      "Soul ID training required for any AI-generated human likeness — no generic AI faces",
      "Figma finishing required for any AI-generated visual — no raw Higgsfield / kie.ai outputs",
      "AI-generated voices NOT used in paid ads — real ambassadors, real VO, real customers only",
      "Every AI-generated ad carries Meta's AI Content Label per policy",
      "Bar: indistinguishable from production photography"
    ]
  }
}
